Folder: LIPRAS

Note: paper.md
---
title: 'Line-Profile Analysis Software (LIPRAS)'
tags:
  - MATLAB
  - X-ray diffraction
  - Peak fitting
  
authors:
  - name: Giovanni Esteves, Klarissa Ramos, Chris M. Fancher, and Jacob L. Jones
    affiliation: 1
affiliations:
 - name: Department of Materials Science and Engineering, North Carolina State University, Raleigh, NC
   index: 1
date: 15 October 2020
bibliography: paper.bib
---

# Summary


Line-Profile Analysis is a common approach to quantify changes in diffraction data. Peaks can be modeled by profile shape functions (Gaussian, Lorentzian, Pearson VII, or Pseudo-Voigt) to extract peak position, full width at half maximum (FWHM), and intensity. Line-profile analysis can be applied to diffraction data from _in situ_ measurements during application of temperature, pressure, stress, and electric fields to detect and characterize subtle and significant changes. Additionally, line-profile analysis is particularly useful when the profile shapes or the combination of peaks cannot be adequately modeled in a full profile refinement such as that employed in Rietveld refinements.

LIPRAS, short for Line-Profile Analysis Software, is a graphical user interface for least squares peak fitting of Bragg peaks in diffraction data from both X-ray and neutron sources. For any region of the inputted data, the user can choose which profile functions to apply to the fit, constrain profile functions, and view the resulting fit in terms of the profile functions chosen. LIPRAS was designed to allow for customizability of the profile shape functions applied to diffraction data and for when simplicity and/or automation is needed. LIPRAS is equipped with five profile functions to conduct peak fit analysis: Gaussian, Lorentzian, Pearson-VII, pseudo-Voigt, and Split Pearson-VII (asymmetric). These profile functions can be added together (up to 20) and constrained by various profile coefficients to increase the number of possible models that can be used. The background can be modeled using a spline function or polynomial and can be treated separately or included in the least-squares routine. Profile coefficients and fit data are saved for all data files contained within the analysis.

A Bayesian inference analysis can be carried out on the resulting least squares results to generate a full description of the errors for all profile parameters. The algorithm used is a Markov Chain Monte Carlo (MCMC) Metropolis-in-Gibbs, which is described in Ref [1]. LIPRAS allows the user to have control of the parameter mean and standard deviation used in the algorithm to sample. Histograms of every parameter will be displayed at the end of the Bayesian analysis with the results saved accordingly at the end of each analysis. Description of the model used in LIPRAS is detailed in LIPRAS manual, provided in every download.

LIPRAS is open source and is written in MATLAB with a standalone version available. MATLAB users need to have the Curve Fitting Toolbox<sup>TM</sup> inst

Note: README.md
<p align="center">
  <img src="Logo/Logo_R5.png" alt="LIPRAS logo" width="600">
</p>

# 

## Authors
Giovanni Esteves, Klarissa Ramos, Chris M. Fancher, and Jacob L. Jones

<p>Contact Info<br>
<b>Email:</b> lipras17@gmail.com<br>
<i> Please include "LIPRAS" in subject </i></p>

<b> History: </b>Jacob L. Jones created the original code in 2006â€“2007. Chris M. Fancher expanded it in 2014 and converted it into a MATLAB class. Giovanni Esteves then refined and extended it, and in 2016 Klarissa Ramos and Giovanni developed the GUI now known as LIPRAS. Today, LIPRAS is maintained by Giovanni and has been migrated to MATLAB App Designer.

## What is LIPRAS?

**LIPRAS** [*LEEP-ruhs*], short for **Line-Profile Analysis Software**, is a graphical user interface for least-squares fitting of Bragg peaks in powder diffraction data. For any region of the inputted data, user can choose which profile functions to apply to the fit, constrain profile functions, and view the resulting fit in terms of the profile functions chosen. A Bayesian inference analysis can be carried out on the resulting least-squares result to generate a full description of the errors for all profile parameters.


## Features in LIPRAS
<b> Why use LIPRAS?</b> You can use LIPRAS to visualize and analyze diffraction data.

<ul>
<li> Quickly extract relevant peak information about the <b>position, full width at half maximum (FWHM), and intensity</b> </li>
<li> Conduct Bayesian inference on least-squares results using a Markov Chain Monte Carlo algorithm</li>
<li> Customize the background fit by either treating it separately (Polynomial or Spline) or including it in the least-squares routine (Polynomial only)</li>
<li> Can analyzes files with a different number of data points and/or X-values, however, check fitting range before attempting </li>
<li> Fit up to <b>20 peaks</b> in the current profile region </li>
<li> Choose from 5 peak-shape functions: <b>Gaussian, Lorentzian, Pseudo-Voigt, and Pearson VII, and Asymmetric Pearson VII</b> </li>
<li> Peak-shape functions can be constrained in terms of intensity, peak position, FWHM, and mixing coefficient</li>
<li> Automatically calculate Cu-Kalpha2 peaks when working with laboratory X-ray data </li>
<li> Change any of the starting fit values and instantly view a sample plot of the fit, before conducting a fit</li>
<li> For multiple diffraction patterns, results from previous fit are subsequent starting parameters for next fit </li>
<li> Visualize results with a plot of the resulting peak fit and residual plot</li>
<li> Resulting coefficients values can be viewed with file number </li>
<li> Parameters files are written to recreate fits and detail what fit parameters and profile shape functions were used</li>
<li> Accepts the following <b>file types: .xy, .xye, .xls, .xlsx, .fxye, .xrdml, .chi, .csv (Windows Only)</b></li>
</ul>

## Changes from LIPRAS-Classic

<b> Background Point Selection </b>
* Click Select Points, then click on the plot to add

Note: test_parameter_file.txt
Fit parameters

2theta_fit_range: 3.600000 3.900000

Number_of_background_points: 10
Background_order: 3
Background_points: 3.608380 3.617510 3.626640 3.629684 3.632727 3.864024 3.873154 3.885328 3.885328 3.891414

Peak Parameters
PeakPos: 3.714 3.764
Fxn: AsymmetricPVII AsymmetricPVII
fitrange: 0.3000
Constraints: 0 0 0 1

Fit_initial Parameters
m N1L N1R x1 f1 N2L N2R x2 f2 
SP: 2.0000 356.28 356.28 3.7141 0.11171 420.64 420.64 3.7642 0.059763
UB: 20.000 1781.4 1781.4 3.7341 0.22343 2103.2 2103.2 3.7842 0.11953
LB: 0.10000 0.0000 0.0000 3.6941 0.0000 0.0000 0.0000 3.7442 0.0000

Fit Errors
Filename 		 Rp 	 Rwp
350 	 0.72 	 0.96
351 	 0.71 	 1.00
352 	 0.86 	 1.09
353 	 0.72 	 0.97
354 	 0.61 	 0.80
355 	 0.84 	 1.16

Note: testingGit.txt
Im testing Git hub on my computer, wtf

File: 350.chi
C:\Users\geste_000\Documents\MatLab Analysis\PSU\(111) Dense\clamped files\350.t
2-Theta Angle (Degrees)
Intensity
       1500
 0.525433  999.617
 0.543693  1089.85
 0.561953  973.164
 0.580213  1025.56
 0.598474  1038.86
 0.616734  967.192
 0.634994  1019.63
 0.653255  1011.79
 0.671515  982.003
 0.689775  1006.3
 0.708036  1026.82
 0.726296  978.753
 0.744556  1090.66
 0.762816  1194.66
 0.781077  1023.42
 0.799337  1003.31
 0.817597  1132.72
 0.835858  1102.14
 0.854118  1082.66
 0.872378  1114.82
 0.890639  1130.57
 0.908899  1134.72
 0.927159  1047.74
 0.945419  1125.58
 0.96368  1115.28
 0.98194  1049.29
 1.0002  1174.69
 1.01846  1061.13
 1.03672  1061.58
 1.05498  1158.78
 1.07324  1105.34
 1.0915  1008.13
 1.10976  1094.43
 1.12802  1068.19
 1.14628  1100.47
 1.16454  1133.71
 1.1828  1219.84
 1.20106  1102.79
 1.21932  1213.51
 1.23758  1158.32
 1.25584  1137.14
 1.2741  1097.37
 1.29237  1210.84
 1.31063  1094.97
 1.32889  1229.02
 1.34715  1195.33
 1.36541  1175.75
 1.38367  1251.61
 1.40193  1174.16
 1.42019  1163.45
 1.43845  1169.44
 1.45671  1186.79
 1.47497  1155.31
 1.49323  1206.17
 1.51149  1333.26
 1.52975  1468.67
 1.54801  1496.88
 1.56627  1365.76
 1.58453  1239.79
 1.60279  1228.75
 1.62105  1254.17
 1.63931  1251
 1.65757  1194.02
 1.67583  1263.01
 1.69409  1194.49
 1.71235  1227.42
 1.73061  1147.37
 1.74887  1236.55
 1.76713  1233.94
 1.78539  1253.43
 1.80365  1234.45
 1.82191  1204.89
 1.84017  1284.31
 1.85843  1259.03
 1.87669  1225.53
 1.89495  1294.35
 1.91322  1264.05
 1.93148  1262.06
 1.94974  1285.71
 1.968  1370.91
 1.98626  1266.53
 2.00452  1406.36
 2.02278  1317.21
 2.04104  1370.21
 2.0593  1278.8
 2.07756  1360.86
 2.09582  1366.13
 2.11408  1399.68
 2.13234  1605.14
 2.1506  2096.61
 2.16886  2233.31
 2.18712  1900.42
 2.20538  1484.31
 2.22364  1341.41
 2.2419  1450.62
 2.26016  1368.3
 2.27842  1394.41
 2.29668  1403.85
 2.31494  1447.2
 2.3332  1395.83
 2.35146  1443.07
 2.36972  1499.48
 2.38798  1509.05
 2.40624  1495.02
 2.4245  1550.48
 2.44276  1543.71
 2.46102  1617.21
 2.47928  1611.83
 2.49755  1632.18
 2.51581  1769.64
 2.53407  1798.3
 2.55233  2031.64
 2.57059  2177.42
 2.58885  2453.64
 2.60711  3135.62
 2.62537  5665.94
 2.64363  27939.8
 2.66189  27999.2
 2.68015  8344.19
 2.69841  9786.74
 2.71667  37185
 2.73493  267309
 2.75319  22106
 2.77145  7519.52
 2.78971  4702.15
 2.80797  3446.91
 2.82623  2825.75
 2.84449  2467.98
 2.86275  2182.7
 2.88101  2042.86
 2.89927  1910.98
 2.91753  1817.84
 2.93579  1809.75
 2.95405  1802.19
 2.97231  1804.19
 2.99057  1749.76
 3.00883  1749.32
 3.02709  1774.07
 3.04535  1876.6
 3.06361  1859.63
 3.08187  2078.05
 3.10013  1977.49
 3.1184  1758.07
 3.13666  1837.55
 3.15492  2158
 3.17318  1816.42
 3.19144  1738.9
 3.2097  1704.52
 3.22796  1728.58
 3.24622  1746.18
 3.26448  1700.55
 3.28274  1740.34
 3.301  1737.75
 3.31926  1692.9
 3.33752  1674.55
 3.35578  1740.28
 3.37404  1765.61
 3.3923  1814.13
 3.41056  1812.93
 3.42882  1827.15
 3.44708  1887.08
 3.46534  1815.16
 3.4836  1836.73
 3.50186  1844.03
 3.52012  1809.97
 3.53838  1838.62
 3.55664  1810.36
 3.5749  1848.93
 3.59316  1881.85
 3.61142  1874.66
 3.62968  1937.74
 3.64794  1981.81
 3.6662  2075.24
 3.68446  2264.5
 3.70272  2809.4
 3.72098  3248.87
 3.73925  3747.72
 3.75751  6426.66
 3.77577  5582.83
 3.79403  2927.33
 3.81229  2356.47
 3.83055  2296.07
 3.84881  2144.55
 3.86707  2100.22
 3.88533  2090.62
 3.90359  2111.9
 3.92185  2096.2
 3.94011  2194.99
 3.95837  2171.04
 3.97663  2251.58
 3.99489  2311.33
 4.01315  2290.32
 4.03141  2356.93
 4.04967  2464.92
 4.06793  2476.46
 4.08619  2490.89
 4.10445  2649.44
 4.12271  2678.15
 4.14097  2796.13
 4.15923  2860.35
 4.17749  3026.33
 4.19575  3148.18
 4.21401  3252.09
 4.23227  3411.33
 4.25053  3455.96
 4.26879  3658.63
 4.28705  3753.14
 4.30531  3955.9
 4.32357  4128.82
 4.34183  4148.29
 4.3601  4218.87
 4.37836  4339.3
 4.39662  4252.81
 4.41488  4314.97
 4.43314  4358.53
 4.4514  4450.16
 4.46966  4579.75
 4.48792  4395.82
 4.50618  4331.88
 4.52444  4403.81
 4.5427  4457.35
 4.56096  4918.77
 4.57922  5272.1
 4.59748  5018.72
 4.61574  4848.21
 4.634  4619.87
 4.65226  4294.17
 4.67052  4121.42
 4.68878  3953.54
 4.70704  3902.66
 4.7253  3811.57
 4.74356  3718.08
 4.76182  3642.58
 4.78008  3518.19
 4.79834  3458.61
 4.8166  3358.46
 4.83486  3322.2
 4.85312  3242.85
 4.87138  3273.11
 4.88964  3231.02
 4.9079  3087.45
 4.92616  2974.39
 4.94443  2865.91
 4.96269  2846.04
 4.98095  2804.99
 4.99921  2693.48
 5.01747  2628.9
 5.03573  2606.3
 5.05399  2573.63
 5.07225  2614.8

File: 351.chi
C:\Users\geste_000\Documents\MatLab Analysis\PSU\(111) Dense\clamped files\351.t
2-Theta Angle (Degrees)
Intensity
       1500
 0.525433  1129.5
 0.543693  1074.76
 0.561953  893.779
 0.580213  1040.02
 0.598474  1058.39
 0.616734  935.478
 0.634994  967.296
 0.653255  948.074
 0.671515  1032.68
 0.689775  1056.21
 0.708036  965.006
 0.726296  1061.42
 0.744556  1126.85
 0.762816  993.727
 0.781077  1096.1
 0.799337  1021.87
 0.817597  1091.37
 0.835858  1102.18
 0.854118  1046.2
 0.872378  1117.39
 0.890639  1035.74
 0.908899  1157.77
 0.927159  1090.14
 0.945419  1025.7
 0.96368  1044.85
 0.98194  1112.5
 1.0002  1123.1
 1.01846  1028.1
 1.03672  1043.8
 1.05498  982.403
 1.07324  1170.8
 1.0915  1051.46
 1.10976  1138.71
 1.12802  1103.7
 1.14628  1078.94
 1.16454  1096.07
 1.1828  1076.04
 1.20106  1120.31
 1.21932  1161.93
 1.23758  1158.6
 1.25584  1136.5
 1.2741  1123.51
 1.29237  1152.1
 1.31063  1126.77
 1.32889  1100.57
 1.34715  1133.98
 1.36541  1128.61
 1.38367  1236.21
 1.40193  1233.31
 1.42019  1143.6
 1.43845  1295.73
 1.45671  1184.99
 1.47497  1218.66
 1.49323  1199.25
 1.51149  1274.74
 1.52975  1551.14
 1.54801  1501.19
 1.56627  1240.27
 1.58453  1202.2
 1.60279  1242.29
 1.62105  1263.06
 1.63931  1211.65
 1.65757  1240.82
 1.67583  1228.75
 1.69409  1263.45
 1.71235  1300.53
 1.73061  1263
 1.74887  1184.4
 1.76713  1235.88
 1.78539  1254.67
 1.80365  1220.87
 1.82191  1246.81
 1.84017  1300.54
 1.85843  1215.85
 1.87669  1281.82
 1.89495  1263.45
 1.91322  1345.79
 1.93148  1271.78
 1.94974  1239.92
 1.968  1346.95
 1.98626  1323.17
 2.00452  1280.2
 2.02278  1362.16
 2.04104  1358.33
 2.0593  1353.53
 2.07756  1310.05
 2.09582  1354.7
 2.11408  1343.65
 2.13234  1543.57
 2.1506  2057.23
 2.16886  2194.71
 2.18712  1926.23
 2.20538  1450.8
 2.22364  1364.45
 2.2419  1419.63
 2.26016  1448.18
 2.27842  1377.06
 2.29668  1399.21
 2.31494  1477.44
 2.3332  1362.23
 2.35146  1459.51
 2.36972  1377.21
 2.38798  1397.55
 2.40624  1483.8
 2.4245  1507.33
 2.44276  1554.71
 2.46102  1550.97
 2.47928  1607.12
 2.49755  1718.23
 2.51581  1734.71
 2.53407  1834.6
 2.55233  2003.68
 2.57059  2153.38
 2.58885  2406.41
 2.60711  3137.74
 2.62537  5653.76
 2.64363  27832.3
 2.66189  27858.8
 2.68015  8343.76
 2.69841  9792.98
 2.71667  37100.6
 2.73493  266708
 2.75319  22063.3
 2.77145  7571.3
 2.78971  4629.48
 2.80797  3418.02
 2.82623  2723.32
 2.84449  2442.02
 2.86275  2221.05
 2.88101  2044.83
 2.89927  1893.05
 2.91753  1850.49
 2.93579  1845.34
 2.95405  1770.09
 2.97231  1784.58
 2.99057  1794.85
 3.00883  1757.91
 3.02709  1764.47
 3.04535  1814.74
 3.06361  1875.3
 3.08187  2099.26
 3.10013  1928.53
 3.1184  1767.56
 3.13666  1850.66
 3.15492  2184.85
 3.17318  1758.96
 3.19144  1711.65
 3.2097  1679.81
 3.22796  1665.99
 3.24622  1740.17
 3.26448  1701.33
 3.28274  1694.55
 3.301  1692.66
 3.31926  1738.29
 3.33752  1754.8
 3.35578  1757.71
 3.37404  1777.09
 3.3923  1790.86
 3.41056  1813.8
 3.42882  1818.84
 3.44708  1888.62
 3.46534  1810.63
 3.4836  1789.95
 3.50186  1841.84
 3.52012  1793.34
 3.53838  1855.41
 3.55664  1760.58
 3.5749  1785.28
 3.59316  1797.15
 3.61142  1865.7
 3.62968  1943.28
 3.64794  2017.84
 3.6662  2081.42
 3.68446  2307.84
 3.70272  2721.02
 3.72098  3223.85
 3.73925  3766.81
 3.75751  6431.6
 3.77577  5541.82
 3.79403  2910.31
 3.81229  2404.77
 3.83055  2217.82
 3.84881  2128.68
 3.86707  2057.6
 3.88533  2074.32
 3.90359  2108.01
 3.92185  2101.04
 3.94011  2169.41
 3.95837  2168.42
 3.97663  2242.71
 3.99489  2248.48
 4.01315  2278.25
 4.03141  2364.25
 4.04967  2397.87
 4.06793  2498.02
 4.08619  2542.34
 4.10445  2613.93
 4.12271  2738.43
 4.14097  2799.1
 4.15923  2877.9
 4.17749  2994.45
 4.19575  3099.1
 4.21401  3215.19
 4.23227  3380.51
 4.25053  3502.76
 4.26879  3585.35
 4.28705  3798.16
 4.30531  3892.43
 4.32357  4016.71
 4.34183  4099.26
 4.3601  4236.9
 4.37836  4304.53
 4.39662  4323.01
 4.41488  4307.92
 4.43314  4310.19
 4.4514  4387.16
 4.46966  4533.98
 4.48792  4359.94
 4.50618  4366.75
 4.52444  4370.87
 4.5427  4470.46
 4.56096  4843.99
 4.57922  5255.37
 4.59748  5011.61
 4.61574  4823.7
 4.634  4613.56
 4.65226  4296.06
 4.67052  4076.96
 4.68878  3964.24
 4.70704  3915
 4.7253  3831.77
 4.74356  3722.59
 4.76182  3630.59
 4.78008  3569.94
 4.79834  3473.57
 4.8166  3345.85
 4.83486  3297.16
 4.85312  3256.74
 4.87138  3258.03
 4.88964  3133.49
 4.9079  3043.78
 4.92616  2992.57
 4.94443  2844.5
 4.96269  2775.47
 4.98095  2781.32
 4.99921  2687.68
 5.01747  2653.94
 5.03573  2613.97
 5.05399  2601.77
 5.07225  2624.59

File: 352.chi
C:\Users\geste_000\Documents\MatLab Analysis\PSU\(111) Dense\clamped files\352.t
2-Theta Angle (Degrees)
Intensity
       1500
 0.525433  1097.2
 0.543693  1058.86
 0.561953  936.326
 0.580213  1028.13
 0.598474  968.291
 0.616734  1045.56
 0.634994  1045.93
 0.653255  1063.37
 0.671515  1056.48
 0.689775  1010.68
 0.708036  1051.43
 0.726296  1061.76
 0.744556  902.565
 0.762816  1056.58
 0.781077  992.978
 0.799337  1011.67
 0.817597  1035.24
 0.835858  1092.29
 0.854118  1026.41
 0.872378  1108.19
 0.890639  1021.51
 0.908899  1071.24
 0.927159  1106.63
 0.945419  1085.28
 0.96368  1077.27
 0.98194  1131.92
 1.0002  1072.04
 1.01846  1057.73
 1.03672  1092.63
 1.05498  1046.49
 1.07324  1185.09
 1.0915  1194.77
 1.10976  1144.72
 1.12802  1103.32
 1.14628  1152.08
 1.16454  1078.95
 1.1828  1136.96
 1.20106  1094.22
 1.21932  1117.12
 1.23758  1125.05
 1.25584  1151.07
 1.2741  1204.9
 1.29237  1195.38
 1.31063  1230.28
 1.32889  1149.78
 1.34715  1189.32
 1.36541  1267.38
 1.38367  1188.15
 1.40193  1216.94
 1.42019  1167.14
 1.43845  1262.88
 1.45671  1187.34
 1.47497  1282.83
 1.49323  1343.56
 1.51149  1345.76
 1.52975  1464.11
 1.54801  1523.01
 1.56627  1269.85
 1.58453  1211.68
 1.60279  1181.55
 1.62105  1226.49
 1.63931  1150.54
 1.65757  1245.9
 1.67583  1209.36
 1.69409  1164.8
 1.71235  1237.59
 1.73061  1143.51
 1.74887  1231.09
 1.76713  1284.81
 1.78539  1212.12
 1.80365  1210.77
 1.82191  1274.91
 1.84017  1217.37
 1.85843  1225.1
 1.87669  1206.79
 1.89495  1224.4
 1.91322  1266.66
 1.93148  1301.48
 1.94974  1202.25
 1.968  1272.67
 1.98626  1310.33
 2.00452  1270.4
 2.02278  1374.93
 2.04104  1382.05
 2.0593  1344.57
 2.07756  1281.93
 2.09582  1402.46
 2.11408  1406.99
 2.13234  1583.59
 2.1506  2086.76
 2.16886  2157.22
 2.18712  1791.12
 2.20538  1488.04
 2.22364  1350.91
 2.2419  1435.31
 2.26016  1399.47
 2.27842  1371.02
 2.29668  1307.5
 2.31494  1380.31
 2.3332  1374.39
 2.35146  1478.36
 2.36972  1463.45
 2.38798  1531.8
 2.40624  1566.18
 2.4245  1497.61
 2.44276  1514.61
 2.46102  1589.51
 2.47928  1669.56
 2.49755  1624.86
 2.51581  1769.42
 2.53407  1899.28
 2.55233  1977.41
 2.57059  2184.49
 2.58885  2463.52
 2.60711  3078.7
 2.62537  5632.57
 2.64363  27760.7
 2.66189  27764
 2.68015  8236.49
 2.69841  9715.21
 2.71667  37021.1
 2.73493  265535
 2.75319  22050.7
 2.77145  7367.95
 2.78971  4608.59
 2.80797  3335.54
 2.82623  2747.42
 2.84449  2421.1
 2.86275  2197.86
 2.88101  1991.37
 2.89927  1919.13
 2.91753  1849.8
 2.93579  1786.77
 2.95405  1731.97
 2.97231  1782.62
 2.99057  1768.72
 3.00883  1729.35
 3.02709  1746.99
 3.04535  1847.18
 3.06361  1922.61
 3.08187  2085.05
 3.10013  1885.6
 3.1184  1765.5
 3.13666  1807.33
 3.15492  2108.31
 3.17318  1791.58
 3.19144  1715.7
 3.2097  1724.65
 3.22796  1630.05
 3.24622  1705.99
 3.26448  1772.93
 3.28274  1678.88
 3.301  1686.54
 3.31926  1694.22
 3.33752  1707.36
 3.35578  1738.19
 3.37404  1772.5
 3.3923  1751.51
 3.41056  1831.16
 3.42882  1856.36
 3.44708  1898.12
 3.46534  1806.96
 3.4836  1777.25
 3.50186  1749.77
 3.52012  1824.39
 3.53838  1796.49
 3.55664  1863.87
 3.5749  1839.1
 3.59316  1834.66
 3.61142  1888.18
 3.62968  1905.45
 3.64794  1972.2
 3.6662  2061.1
 3.68446  2226.44
 3.70272  2785.14
 3.72098  3258.61
 3.73925  3740.92
 3.75751  6425.77
 3.77577  5565.73
 3.79403  2911.18
 3.81229  2386.6
 3.83055  2238.12
 3.84881  2122.16
 3.86707  2137.12
 3.88533  2116.95
 3.90359  2126.26
 3.92185  2118.79
 3.94011  2128.2
 3.95837  2175.07
 3.97663  2219.47
 3.99489  2207.23
 4.01315  2284.67
 4.03141  2359.86
 4.04967  2345.34
 4.06793  2435.75
 4.08619  2506.69
 4.10445  2576.52
 4.12271  2660.52
 4.14097  2819.52
 4.15923  2840.34
 4.17749  3006.3
 4.19575  3056.4
 4.21401  3217.27
 4.23227  3342.46
 4.25053  3458.27
 4.26879  3590.93
 4.28705  3763.64
 4.30531  3930.5
 4.32357  4069.64
 4.34183  4075.97
 4.3601  4171.36
 4.37836  4300.94
 4.39662  4268.17
 4.41488  4298.12
 4.43314  4384.56
 4.4514  4456.35
 4.46966  4535.16
 4.48792  4377.74
 4.50618  4381.38
 4.52444  4348.97
 4.5427  4419.18
 4.56096  4867.13
 4.57922  5175.62
 4.59748  4924.83
 4.61574  4834.37
 4.634  4536.68
 4.65226  4246.01
 4.67052  4057.46
 4.68878  3935.4
 4.70704  3851.6
 4.7253  3755.8
 4.74356  3702.12
 4.76182  3615.37
 4.78008  3514.07
 4.79834  3430.93
 4.8166  3332.16
 4.83486  3264.88
 4.85312  3250.67
 4.87138  3250.32
 4.88964  3179.47
 4.9079  3009.85
 4.92616  2972.33
 4.94443  2843.83
 4.96269  2796.14
 4.98095  2736.03
 4.99921  2725.85
 5.01747  2706.59
 5.03573  2616.91
 5.05399  2583.59
 5.07225  2602.56

File: 353.chi
C:\Users\geste_000\Documents\MatLab Analysis\PSU\(111) Dense\clamped files\353.t
2-Theta Angle (Degrees)
Intensity
       1500
 0.525433  1005.1
 0.543693  1061.07
 0.561953  987.092
 0.580213  1026.88
 0.598474  1115.29
 0.616734  956.096
 0.634994  1079.05
 0.653255  1076.97
 0.671515  1071.59
 0.689775  1114.63
 0.708036  1008.23
 0.726296  1093.55
 0.744556  1040.46
 0.762816  1020.57
 0.781077  1159.12
 0.799337  1016.1
 0.817597  967.969
 0.835858  913.056
 0.854118  1024
 0.872378  1063.78
 0.890639  1060.36
 0.908899  1130.84
 0.927159  1036.62
 0.945419  1039.49
 0.96368  1052.46
 0.98194  1183.37
 1.0002  1064.55
 1.01846  1124.35
 1.03672  1211.91
 1.05498  1078.83
 1.07324  1109.71
 1.0915  1081.61
 1.10976  1077.82
 1.12802  1120.67
 1.14628  1083.55
 1.16454  1088.5
 1.1828  1114.23
 1.20106  1135.86
 1.21932  1171.81
 1.23758  1146.84
 1.25584  1133.27
 1.2741  1126.54
 1.29237  1147.16
 1.31063  1150.21
 1.32889  1176.18
 1.34715  1122.4
 1.36541  1125.97
 1.38367  1186.26
 1.40193  1174.01
 1.42019  1196.8
 1.43845  1178.03
 1.45671  1201.68
 1.47497  1237.5
 1.49323  1248.82
 1.51149  1381.22
 1.52975  1533.21
 1.54801  1434.2
 1.56627  1253.94
 1.58453  1147.22
 1.60279  1158.79
 1.62105  1206.38
 1.63931  1215.88
 1.65757  1166.4
 1.67583  1188.02
 1.69409  1139.87
 1.71235  1191.42
 1.73061  1210.22
 1.74887  1369.59
 1.76713  1239.64
 1.78539  1267.78
 1.80365  1205.78
 1.82191  1162.9
 1.84017  1219.29
 1.85843  1233.79
 1.87669  1309.47
 1.89495  1401.67
 1.91322  1201.29
 1.93148  1238.01
 1.94974  1289.22
 1.968  1342.37
 1.98626  1281.64
 2.00452  1316.02
 2.02278  1351
 2.04104  1299.67
 2.0593  1299.2
 2.07756  1322.12
 2.09582  1349.53
 2.11408  1401.29
 2.13234  1539.68
 2.1506  2080.52
 2.16886  2156.3
 2.18712  1824.5
 2.20538  1466.79
 2.22364  1419.37
 2.2419  1367.46
 2.26016  1370.88
 2.27842  1363.86
 2.29668  1448.12
 2.31494  1420.17
 2.3332  1383.83
 2.35146  1411.91
 2.36972  1424.86
 2.38798  1493.87
 2.40624  1533.82
 2.4245  1524.16
 2.44276  1526.16
 2.46102  1586.25
 2.47928  1568.94
 2.49755  1672.26
 2.51581  1745.94
 2.53407  1866.47
 2.55233  1941.2
 2.57059  2145.54
 2.58885  2459.53
 2.60711  3145.96
 2.62537  5647.64
 2.64363  27905.4
 2.66189  27472.2
 2.68015  8246.11
 2.69841  9697.51
 2.71667  36850.5
 2.73493  265157
 2.75319  21964.7
 2.77145  7440.29
 2.78971  4606.25
 2.80797  3378.41
 2.82623  2770.13
 2.84449  2359.53
 2.86275  2128.29
 2.88101  2027.07
 2.89927  1898.93
 2.91753  1824.02
 2.93579  1832.29
 2.95405  1807.38
 2.97231  1790.6
 2.99057  1797.83
 3.00883  1768.97
 3.02709  1789.15
 3.04535  1849.66
 3.06361  1871.81
 3.08187  2120.24
 3.10013  1874.25
 3.1184  1703.12
 3.13666  1813.4
 3.15492  2106.11
 3.17318  1831.64
 3.19144  1701.91
 3.2097  1749.28
 3.22796  1719.91
 3.24622  1721.36
 3.26448  1693.05
 3.28274  1670.47
 3.301  1702.04
 3.31926  1656.57
 3.33752  1774.2
 3.35578  1769.09
 3.37404  1714.7
 3.3923  1771.43
 3.41056  1758.78
 3.42882  1817.95
 3.44708  1790.7
 3.46534  1769.19
 3.4836  1819.39
 3.50186  1786.3
 3.52012  1755.69
 3.53838  1805.95
 3.55664  1778.26
 3.5749  1781.85
 3.59316  1861.99
 3.61142  1840.8
 3.62968  1910.56
 3.64794  1984.88
 3.6662  2061.6
 3.68446  2287.75
 3.70272  2848.76
 3.72098  3311.47
 3.73925  3704.88
 3.75751  6266.03
 3.77577  5562.17
 3.79403  2859.93
 3.81229  2343.08
 3.83055  2216.5
 3.84881  2159.99
 3.86707  2082
 3.88533  2074.17
 3.90359  2103.83
 3.92185  2077.41
 3.94011  2096.13
 3.95837  2187.91
 3.97663  2172.17
 3.99489  2222.51
 4.01315  2309.2
 4.03141  2312.15
 4.04967  2391.01
 4.06793  2408.74
 4.08619  2558.76
 4.10445  2595.59
 4.12271  2619.75
 4.14097  2752.71
 4.15923  2823.29
 4.17749  2968.46
 4.19575  3068.7
 4.21401  3236.71
 4.23227  3294.33
 4.25053  3436.19
 4.26879  3538.14
 4.28705  3746.53
 4.30531  3850.24
 4.32357  3997.53
 4.34183  4083.05
 4.3601  4156.67
 4.37836  4277.93
 4.39662  4252.49
 4.41488  4334.17
 4.43314  4354.87
 4.4514  4388.7
 4.46966  4493.17
 4.48792  4322.77
 4.50618  4331.55
 4.52444  4340.97
 4.5427  4461.61
 4.56096  4830.44
 4.57922  5223.63
 4.59748  4953.42
 4.61574  4791.2
 4.634  4614.45
 4.65226  4225.66
 4.67052  4013.22
 4.68878  3968
 4.70704  3892.66
 4.7253  3775.64
 4.74356  3702.72
 4.76182  3575.13
 4.78008  3458.22
 4.79834  3415
 4.8166  3316.48
 4.83486  3299.26
 4.85312  3190.17
 4.87138  3167.28
 4.88964  3167.13
 4.9079  3049.15
 4.92616  2924.53
 4.94443  2793.77
 4.96269  2810.42
 4.98095  2738.43
 4.99921  2689.06
 5.01747  2644.67
 5.03573  2626.38
 5.05399  2527.19
 5.07225  2560.53